"","Session","Subject_ID","Round","Choice"
"1","vgpsdprj",1,1,7
"2","vgpsdprj",1,2,4
"3","vgpsdprj",1,3,3
"4","vgpsdprj",1,4,4
"5","vgpsdprj",1,5,5
"6","vgpsdprj",1,6,6
"7","vgpsdprj",1,7,7
"8","vgpsdprj",1,8,7
"9","vgpsdprj",1,9,1
"10","vgpsdprj",1,10,2
"11","vgpsdprj",1,11,3
"12","vgpsdprj",1,12,4
"13","vgpsdprj",1,13,5
"14","vgpsdprj",1,14,6
"15","vgpsdprj",1,15,7
"16","vgpsdprj",1,16,1
"17","vgpsdprj",1,17,2
"18","vgpsdprj",1,18,3
"19","vgpsdprj",1,19,2
"20","vgpsdprj",1,20,3
"21","mv7cijz3",2,1,5
"22","mv7cijz3",2,2,5
"23","mv7cijz3",2,3,3
"24","mv7cijz3",2,4,1
"25","mv7cijz3",2,5,4
"26","mv7cijz3",2,6,7
"27","mv7cijz3",2,7,7
"28","mv7cijz3",2,8,7
"29","mv7cijz3",2,9,7
"30","mv7cijz3",2,10,7
"31","mv7cijz3",2,11,1
"32","mv7cijz3",2,12,1
"33","mv7cijz3",2,13,1
"34","mv7cijz3",2,14,2
"35","mv7cijz3",2,15,3
"36","mv7cijz3",2,16,2
"37","mv7cijz3",2,17,2
"38","mv7cijz3",2,18,2
"39","mv7cijz3",2,19,2
"40","mv7cijz3",2,20,2
"41","vgpsdprj",3,1,1
"42","vgpsdprj",3,2,2
"43","vgpsdprj",3,3,4
"44","vgpsdprj",3,4,6
"45","vgpsdprj",3,5,7
"46","vgpsdprj",3,6,6
"47","vgpsdprj",3,7,6
"48","vgpsdprj",3,8,7
"49","vgpsdprj",3,9,7
"50","vgpsdprj",3,10,2
"51","vgpsdprj",3,11,4
"52","vgpsdprj",3,12,4
"53","vgpsdprj",3,13,6
"54","vgpsdprj",3,14,6
"55","vgpsdprj",3,15,6
"56","vgpsdprj",3,16,7
"57","vgpsdprj",3,17,1
"58","vgpsdprj",3,18,3
"59","vgpsdprj",3,19,2
"60","vgpsdprj",3,20,4
"61","mv7cijz3",4,1,4
"62","mv7cijz3",4,2,2
"63","mv7cijz3",4,3,7
"64","mv7cijz3",4,4,1
"65","mv7cijz3",4,5,2
"66","mv7cijz3",4,6,1
"67","mv7cijz3",4,7,7
"68","mv7cijz3",4,8,1
"69","mv7cijz3",4,9,1
"70","mv7cijz3",4,10,2
"71","mv7cijz3",4,11,7
"72","mv7cijz3",4,12,1
"73","mv7cijz3",4,13,1
"74","mv7cijz3",4,14,2
"75","mv7cijz3",4,15,2
"76","mv7cijz3",4,16,1
"77","mv7cijz3",4,17,2
"78","mv7cijz3",4,18,2
"79","mv7cijz3",4,19,3
"80","mv7cijz3",4,20,4
"81","vgpsdprj",5,1,5
"82","vgpsdprj",5,2,1
"83","vgpsdprj",5,3,3
"84","vgpsdprj",5,4,4
"85","vgpsdprj",5,5,5
"86","vgpsdprj",5,6,6
"87","vgpsdprj",5,7,7
"88","vgpsdprj",5,8,7
"89","vgpsdprj",5,9,6
"90","vgpsdprj",5,10,2
"91","vgpsdprj",5,11,3
"92","vgpsdprj",5,12,4
"93","vgpsdprj",5,13,5
"94","vgpsdprj",5,14,6
"95","vgpsdprj",5,15,7
"96","vgpsdprj",5,16,7
"97","vgpsdprj",5,17,2
"98","vgpsdprj",5,18,3
"99","vgpsdprj",5,19,2
"100","vgpsdprj",5,20,3
"101","mv7cijz3",6,1,2
"102","mv7cijz3",6,2,2
"103","mv7cijz3",6,3,1
"104","mv7cijz3",6,4,1
"105","mv7cijz3",6,5,2
"106","mv7cijz3",6,6,1
"107","mv7cijz3",6,7,1
"108","mv7cijz3",6,8,2
"109","mv7cijz3",6,9,1
"110","mv7cijz3",6,10,1
"111","mv7cijz3",6,11,1
"112","mv7cijz3",6,12,3
"113","mv7cijz3",6,13,1
"114","mv7cijz3",6,14,1
"115","mv7cijz3",6,15,1
"116","mv7cijz3",6,16,1
"117","mv7cijz3",6,17,1
"118","mv7cijz3",6,18,1
"119","mv7cijz3",6,19,1
"120","mv7cijz3",6,20,1
"121","vgpsdprj",7,1,4
"122","vgpsdprj",7,2,6
"123","vgpsdprj",7,3,4
"124","vgpsdprj",7,4,4
"125","vgpsdprj",7,5,5
"126","vgpsdprj",7,6,6
"127","vgpsdprj",7,7,7
"128","vgpsdprj",7,8,7
"129","vgpsdprj",7,9,7
"130","vgpsdprj",7,10,6
"131","vgpsdprj",7,11,3
"132","vgpsdprj",7,12,5
"133","vgpsdprj",7,13,7
"134","vgpsdprj",7,14,5
"135","vgpsdprj",7,15,6
"136","vgpsdprj",7,16,3
"137","vgpsdprj",7,17,1
"138","vgpsdprj",7,18,1
"139","vgpsdprj",7,19,2
"140","vgpsdprj",7,20,4
"141","mv7cijz3",8,1,6
"142","mv7cijz3",8,2,5
"143","mv7cijz3",8,3,4
"144","mv7cijz3",8,4,3
"145","mv7cijz3",8,5,2
"146","mv7cijz3",8,6,2
"147","mv7cijz3",8,7,2
"148","mv7cijz3",8,8,7
"149","mv7cijz3",8,9,2
"150","mv7cijz3",8,10,1
"151","mv7cijz3",8,11,1
"152","mv7cijz3",8,12,1
"153","mv7cijz3",8,13,1
"154","mv7cijz3",8,14,1
"155","mv7cijz3",8,15,2
"156","mv7cijz3",8,16,2
"157","mv7cijz3",8,17,2
"158","mv7cijz3",8,18,2
"159","mv7cijz3",8,19,2
"160","mv7cijz3",8,20,2
"161","9guusn80",9,1,4
"162","9guusn80",9,2,5
"163","9guusn80",9,3,4
"164","9guusn80",9,4,4
"165","9guusn80",9,5,2
"166","9guusn80",9,6,2
"167","9guusn80",9,7,3
"168","9guusn80",9,8,3
"169","9guusn80",9,9,3
"170","9guusn80",9,10,3
"171","9guusn80",9,11,2
"172","9guusn80",9,12,2
"173","9guusn80",9,13,3
"174","9guusn80",9,14,3
"175","9guusn80",9,15,4
"176","9guusn80",9,16,3
"177","9guusn80",9,17,4
"178","9guusn80",9,18,3
"179","9guusn80",9,19,3
"180","9guusn80",9,20,4
"181","ldhz1fwu",10,1,3
"182","ldhz1fwu",10,2,3
"183","ldhz1fwu",10,3,3
"184","ldhz1fwu",10,4,2
"185","ldhz1fwu",10,5,1
"186","ldhz1fwu",10,6,1
"187","ldhz1fwu",10,7,1
"188","ldhz1fwu",10,8,1
"189","ldhz1fwu",10,9,1
"190","ldhz1fwu",10,10,1
"191","ldhz1fwu",10,11,1
"192","ldhz1fwu",10,12,2
"193","ldhz1fwu",10,13,2
"194","ldhz1fwu",10,14,2
"195","ldhz1fwu",10,15,2
"196","ldhz1fwu",10,16,2
"197","ldhz1fwu",10,17,2
"198","ldhz1fwu",10,18,3
"199","ldhz1fwu",10,19,3
"200","ldhz1fwu",10,20,4
"201","9guusn80",11,1,5
"202","9guusn80",11,2,7
"203","9guusn80",11,3,7
"204","9guusn80",11,4,1
"205","9guusn80",11,5,2
"206","9guusn80",11,6,3
"207","9guusn80",11,7,2
"208","9guusn80",11,8,7
"209","9guusn80",11,9,7
"210","9guusn80",11,10,1
"211","9guusn80",11,11,4
"212","9guusn80",11,12,4
"213","9guusn80",11,13,3
"214","9guusn80",11,14,2
"215","9guusn80",11,15,3
"216","9guusn80",11,16,2
"217","9guusn80",11,17,3
"218","9guusn80",11,18,2
"219","9guusn80",11,19,3
"220","9guusn80",11,20,5
"221","ldhz1fwu",12,1,2
"222","ldhz1fwu",12,2,2
"223","ldhz1fwu",12,3,2
"224","ldhz1fwu",12,4,1
"225","ldhz1fwu",12,5,1
"226","ldhz1fwu",12,6,2
"227","ldhz1fwu",12,7,1
"228","ldhz1fwu",12,8,1
"229","ldhz1fwu",12,9,1
"230","ldhz1fwu",12,10,1
"231","ldhz1fwu",12,11,1
"232","ldhz1fwu",12,12,1
"233","ldhz1fwu",12,13,2
"234","ldhz1fwu",12,14,2
"235","ldhz1fwu",12,15,2
"236","ldhz1fwu",12,16,2
"237","ldhz1fwu",12,17,2
"238","ldhz1fwu",12,18,3
"239","ldhz1fwu",12,19,3
"240","ldhz1fwu",12,20,4
"241","9guusn80",13,1,3
"242","9guusn80",13,2,4
"243","9guusn80",13,3,4
"244","9guusn80",13,4,5
"245","9guusn80",13,5,6
"246","9guusn80",13,6,6
"247","9guusn80",13,7,5
"248","9guusn80",13,8,2
"249","9guusn80",13,9,4
"250","9guusn80",13,10,5
"251","9guusn80",13,11,6
"252","9guusn80",13,12,3
"253","9guusn80",13,13,4
"254","9guusn80",13,14,4
"255","9guusn80",13,15,3
"256","9guusn80",13,16,4
"257","9guusn80",13,17,3
"258","9guusn80",13,18,4
"259","9guusn80",13,19,3
"260","9guusn80",13,20,3
"261","ldhz1fwu",14,1,2
"262","ldhz1fwu",14,2,3
"263","ldhz1fwu",14,3,1
"264","ldhz1fwu",14,4,1
"265","ldhz1fwu",14,5,2
"266","ldhz1fwu",14,6,1
"267","ldhz1fwu",14,7,2
"268","ldhz1fwu",14,8,1
"269","ldhz1fwu",14,9,1
"270","ldhz1fwu",14,10,1
"271","ldhz1fwu",14,11,1
"272","ldhz1fwu",14,12,1
"273","ldhz1fwu",14,13,1
"274","ldhz1fwu",14,14,1
"275","ldhz1fwu",14,15,1
"276","ldhz1fwu",14,16,2
"277","ldhz1fwu",14,17,2
"278","ldhz1fwu",14,18,3
"279","ldhz1fwu",14,19,3
"280","ldhz1fwu",14,20,3
"281","9guusn80",15,1,4
"282","9guusn80",15,2,5
"283","9guusn80",15,3,6
"284","9guusn80",15,4,4
"285","9guusn80",15,5,7
"286","9guusn80",15,6,1
"287","9guusn80",15,7,2
"288","9guusn80",15,8,5
"289","9guusn80",15,9,2
"290","9guusn80",15,10,2
"291","9guusn80",15,11,1
"292","9guusn80",15,12,7
"293","9guusn80",15,13,2
"294","9guusn80",15,14,2
"295","9guusn80",15,15,2
"296","9guusn80",15,16,6
"297","9guusn80",15,17,1
"298","9guusn80",15,18,3
"299","9guusn80",15,19,7
"300","9guusn80",15,20,3
"301","ldhz1fwu",16,1,4
"302","ldhz1fwu",16,2,5
"303","ldhz1fwu",16,3,5
"304","ldhz1fwu",16,4,6
"305","ldhz1fwu",16,5,7
"306","ldhz1fwu",16,6,7
"307","ldhz1fwu",16,7,1
"308","ldhz1fwu",16,8,1
"309","ldhz1fwu",16,9,1
"310","ldhz1fwu",16,10,1
"311","ldhz1fwu",16,11,7
"312","ldhz1fwu",16,12,7
"313","ldhz1fwu",16,13,1
"314","ldhz1fwu",16,14,1
"315","ldhz1fwu",16,15,6
"316","ldhz1fwu",16,16,1
"317","ldhz1fwu",16,17,2
"318","ldhz1fwu",16,18,2
"319","ldhz1fwu",16,19,7
"320","ldhz1fwu",16,20,3
"321","j35x7ayg",17,1,5
"322","j35x7ayg",17,2,7
"323","j35x7ayg",17,3,7
"324","j35x7ayg",17,4,7
"325","j35x7ayg",17,5,7
"326","j35x7ayg",17,6,7
"327","j35x7ayg",17,7,7
"328","j35x7ayg",17,8,7
"329","j35x7ayg",17,9,7
"330","j35x7ayg",17,10,7
"331","j35x7ayg",17,11,7
"332","j35x7ayg",17,12,7
"333","j35x7ayg",17,13,7
"334","j35x7ayg",17,14,7
"335","j35x7ayg",17,15,7
"336","j35x7ayg",17,16,7
"337","j35x7ayg",17,17,7
"338","j35x7ayg",17,18,7
"339","j35x7ayg",17,19,7
"340","j35x7ayg",17,20,7
"341","zzei1x6r",18,1,4
"342","zzei1x6r",18,2,4
"343","zzei1x6r",18,3,4
"344","zzei1x6r",18,4,4
"345","zzei1x6r",18,5,7
"346","zzei1x6r",18,6,1
"347","zzei1x6r",18,7,4
"348","zzei1x6r",18,8,1
"349","zzei1x6r",18,9,4
"350","zzei1x6r",18,10,3
"351","zzei1x6r",18,11,6
"352","zzei1x6r",18,12,1
"353","zzei1x6r",18,13,1
"354","zzei1x6r",18,14,3
"355","zzei1x6r",18,15,3
"356","zzei1x6r",18,16,1
"357","zzei1x6r",18,17,4
"358","zzei1x6r",18,18,1
"359","zzei1x6r",18,19,1
"360","zzei1x6r",18,20,2
"361","j35x7ayg",19,1,7
"362","j35x7ayg",19,2,7
"363","j35x7ayg",19,3,6
"364","j35x7ayg",19,4,7
"365","j35x7ayg",19,5,7
"366","j35x7ayg",19,6,7
"367","j35x7ayg",19,7,7
"368","j35x7ayg",19,8,7
"369","j35x7ayg",19,9,7
"370","j35x7ayg",19,10,7
"371","j35x7ayg",19,11,7
"372","j35x7ayg",19,12,7
"373","j35x7ayg",19,13,7
"374","j35x7ayg",19,14,7
"375","j35x7ayg",19,15,7
"376","j35x7ayg",19,16,7
"377","j35x7ayg",19,17,7
"378","j35x7ayg",19,18,7
"379","j35x7ayg",19,19,7
"380","j35x7ayg",19,20,7
"381","zzei1x6r",20,1,7
"382","zzei1x6r",20,2,7
"383","zzei1x6r",20,3,7
"384","zzei1x6r",20,4,7
"385","zzei1x6r",20,5,7
"386","zzei1x6r",20,6,7
"387","zzei1x6r",20,7,7
"388","zzei1x6r",20,8,7
"389","zzei1x6r",20,9,7
"390","zzei1x6r",20,10,7
"391","zzei1x6r",20,11,7
"392","zzei1x6r",20,12,7
"393","zzei1x6r",20,13,7
"394","zzei1x6r",20,14,7
"395","zzei1x6r",20,15,7
"396","zzei1x6r",20,16,7
"397","zzei1x6r",20,17,7
"398","zzei1x6r",20,18,7
"399","zzei1x6r",20,19,7
"400","zzei1x6r",20,20,7
"401","j35x7ayg",21,1,5
"402","j35x7ayg",21,2,6
"403","j35x7ayg",21,3,7
"404","j35x7ayg",21,4,7
"405","j35x7ayg",21,5,6
"406","j35x7ayg",21,6,7
"407","j35x7ayg",21,7,7
"408","j35x7ayg",21,8,7
"409","j35x7ayg",21,9,7
"410","j35x7ayg",21,10,7
"411","j35x7ayg",21,11,7
"412","j35x7ayg",21,12,7
"413","j35x7ayg",21,13,7
"414","j35x7ayg",21,14,7
"415","j35x7ayg",21,15,7
"416","j35x7ayg",21,16,7
"417","j35x7ayg",21,17,7
"418","j35x7ayg",21,18,7
"419","j35x7ayg",21,19,7
"420","j35x7ayg",21,20,7
"421","zzei1x6r",22,1,7
"422","zzei1x6r",22,2,7
"423","zzei1x6r",22,3,7
"424","zzei1x6r",22,4,1
"425","zzei1x6r",22,5,7
"426","zzei1x6r",22,6,7
"427","zzei1x6r",22,7,7
"428","zzei1x6r",22,8,7
"429","zzei1x6r",22,9,7
"430","zzei1x6r",22,10,7
"431","zzei1x6r",22,11,5
"432","zzei1x6r",22,12,7
"433","zzei1x6r",22,13,7
"434","zzei1x6r",22,14,7
"435","zzei1x6r",22,15,7
"436","zzei1x6r",22,16,7
"437","zzei1x6r",22,17,7
"438","zzei1x6r",22,18,7
"439","zzei1x6r",22,19,7
"440","zzei1x6r",22,20,7
"441","j35x7ayg",23,1,5
"442","j35x7ayg",23,2,6
"443","j35x7ayg",23,3,7
"444","j35x7ayg",23,4,6
"445","j35x7ayg",23,5,7
"446","j35x7ayg",23,6,7
"447","j35x7ayg",23,7,7
"448","j35x7ayg",23,8,7
"449","j35x7ayg",23,9,7
"450","j35x7ayg",23,10,7
"451","j35x7ayg",23,11,7
"452","j35x7ayg",23,12,7
"453","j35x7ayg",23,13,7
"454","j35x7ayg",23,14,7
"455","j35x7ayg",23,15,7
"456","j35x7ayg",23,16,7
"457","j35x7ayg",23,17,7
"458","j35x7ayg",23,18,7
"459","j35x7ayg",23,19,7
"460","j35x7ayg",23,20,7
"461","zzei1x6r",24,1,3
"462","zzei1x6r",24,2,5
"463","zzei1x6r",24,3,5
"464","zzei1x6r",24,4,4
"465","zzei1x6r",24,5,5
"466","zzei1x6r",24,6,7
"467","zzei1x6r",24,7,7
"468","zzei1x6r",24,8,5
"469","zzei1x6r",24,9,4
"470","zzei1x6r",24,10,5
"471","zzei1x6r",24,11,1
"472","zzei1x6r",24,12,4
"473","zzei1x6r",24,13,5
"474","zzei1x6r",24,14,7
"475","zzei1x6r",24,15,7
"476","zzei1x6r",24,16,4
"477","zzei1x6r",24,17,3
"478","zzei1x6r",24,18,4
"479","zzei1x6r",24,19,3
"480","zzei1x6r",24,20,1
"481","jd00jmqj",25,1,3
"482","jd00jmqj",25,2,3
"483","jd00jmqj",25,3,4
"484","jd00jmqj",25,4,3
"485","jd00jmqj",25,5,3
"486","jd00jmqj",25,6,3
"487","jd00jmqj",25,7,3
"488","jd00jmqj",25,8,5
"489","jd00jmqj",25,9,4
"490","jd00jmqj",25,10,4
"491","jd00jmqj",25,11,4
"492","jd00jmqj",25,12,5
"493","jd00jmqj",25,13,5
"494","jd00jmqj",25,14,5
"495","jd00jmqj",25,15,6
"496","jd00jmqj",25,16,7
"497","jd00jmqj",25,17,7
"498","jd00jmqj",25,18,7
"499","jd00jmqj",25,19,7
"500","jd00jmqj",25,20,2
"501","v67fqqzo",26,1,2
"502","v67fqqzo",26,2,2
"503","v67fqqzo",26,3,4
"504","v67fqqzo",26,4,2
"505","v67fqqzo",26,5,3
"506","v67fqqzo",26,6,4
"507","v67fqqzo",26,7,6
"508","v67fqqzo",26,8,4
"509","v67fqqzo",26,9,4
"510","v67fqqzo",26,10,4
"511","v67fqqzo",26,11,5
"512","v67fqqzo",26,12,6
"513","v67fqqzo",26,13,5
"514","v67fqqzo",26,14,5
"515","v67fqqzo",26,15,5
"516","v67fqqzo",26,16,1
"517","v67fqqzo",26,17,2
"518","v67fqqzo",26,18,7
"519","v67fqqzo",26,19,6
"520","v67fqqzo",26,20,6
"521","jd00jmqj",27,1,4
"522","jd00jmqj",27,2,6
"523","jd00jmqj",27,3,4
"524","jd00jmqj",27,4,3
"525","jd00jmqj",27,5,4
"526","jd00jmqj",27,6,3
"527","jd00jmqj",27,7,3
"528","jd00jmqj",27,8,3
"529","jd00jmqj",27,9,4
"530","jd00jmqj",27,10,4
"531","jd00jmqj",27,11,5
"532","jd00jmqj",27,12,5
"533","jd00jmqj",27,13,6
"534","jd00jmqj",27,14,6
"535","jd00jmqj",27,15,6
"536","jd00jmqj",27,16,7
"537","jd00jmqj",27,17,7
"538","jd00jmqj",27,18,7
"539","jd00jmqj",27,19,7
"540","jd00jmqj",27,20,7
"541","v67fqqzo",28,1,6
"542","v67fqqzo",28,2,4
"543","v67fqqzo",28,3,3
"544","v67fqqzo",28,4,4
"545","v67fqqzo",28,5,3
"546","v67fqqzo",28,6,3
"547","v67fqqzo",28,7,4
"548","v67fqqzo",28,8,5
"549","v67fqqzo",28,9,4
"550","v67fqqzo",28,10,4
"551","v67fqqzo",28,11,3
"552","v67fqqzo",28,12,6
"553","v67fqqzo",28,13,6
"554","v67fqqzo",28,14,4
"555","v67fqqzo",28,15,3
"556","v67fqqzo",28,16,4
"557","v67fqqzo",28,17,2
"558","v67fqqzo",28,18,2
"559","v67fqqzo",28,19,1
"560","v67fqqzo",28,20,2
"561","jd00jmqj",29,1,6
"562","jd00jmqj",29,2,5
"563","jd00jmqj",29,3,3
"564","jd00jmqj",29,4,5
"565","jd00jmqj",29,5,4
"566","jd00jmqj",29,6,4
"567","jd00jmqj",29,7,3
"568","jd00jmqj",29,8,4
"569","jd00jmqj",29,9,5
"570","jd00jmqj",29,10,4
"571","jd00jmqj",29,11,5
"572","jd00jmqj",29,12,5
"573","jd00jmqj",29,13,6
"574","jd00jmqj",29,14,6
"575","jd00jmqj",29,15,6
"576","jd00jmqj",29,16,6
"577","jd00jmqj",29,17,7
"578","jd00jmqj",29,18,7
"579","jd00jmqj",29,19,7
"580","jd00jmqj",29,20,7
"581","v67fqqzo",30,1,4
"582","v67fqqzo",30,2,4
"583","v67fqqzo",30,3,5
"584","v67fqqzo",30,4,5
"585","v67fqqzo",30,5,7
"586","v67fqqzo",30,6,4
"587","v67fqqzo",30,7,6
"588","v67fqqzo",30,8,6
"589","v67fqqzo",30,9,3
"590","v67fqqzo",30,10,4
"591","v67fqqzo",30,11,5
"592","v67fqqzo",30,12,5
"593","v67fqqzo",30,13,5
"594","v67fqqzo",30,14,7
"595","v67fqqzo",30,15,7
"596","v67fqqzo",30,16,6
"597","v67fqqzo",30,17,1
"598","v67fqqzo",30,18,1
"599","v67fqqzo",30,19,1
"600","v67fqqzo",30,20,1
"601","jd00jmqj",31,1,7
"602","jd00jmqj",31,2,5
"603","jd00jmqj",31,3,3
"604","jd00jmqj",31,4,4
"605","jd00jmqj",31,5,3
"606","jd00jmqj",31,6,3
"607","jd00jmqj",31,7,3
"608","jd00jmqj",31,8,3
"609","jd00jmqj",31,9,4
"610","jd00jmqj",31,10,5
"611","jd00jmqj",31,11,4
"612","jd00jmqj",31,12,5
"613","jd00jmqj",31,13,6
"614","jd00jmqj",31,14,6
"615","jd00jmqj",31,15,6
"616","jd00jmqj",31,16,6
"617","jd00jmqj",31,17,6
"618","jd00jmqj",31,18,7
"619","jd00jmqj",31,19,7
"620","jd00jmqj",31,20,7
"621","v67fqqzo",32,1,3
"622","v67fqqzo",32,2,7
"623","v67fqqzo",32,3,4
"624","v67fqqzo",32,4,5
"625","v67fqqzo",32,5,3
"626","v67fqqzo",32,6,5
"627","v67fqqzo",32,7,4
"628","v67fqqzo",32,8,5
"629","v67fqqzo",32,9,5
"630","v67fqqzo",32,10,4
"631","v67fqqzo",32,11,5
"632","v67fqqzo",32,12,5
"633","v67fqqzo",32,13,6
"634","v67fqqzo",32,14,6
"635","v67fqqzo",32,15,4
"636","v67fqqzo",32,16,4
"637","v67fqqzo",32,17,4
"638","v67fqqzo",32,18,2
"639","v67fqqzo",32,19,1
"640","v67fqqzo",32,20,1
"641","juu2whn4",33,1,4
"642","juu2whn4",33,2,7
"643","juu2whn4",33,3,5
"644","juu2whn4",33,4,5
"645","juu2whn4",33,5,5
"646","juu2whn4",33,6,5
"647","juu2whn4",33,7,5
"648","juu2whn4",33,8,5
"649","juu2whn4",33,9,4
"650","juu2whn4",33,10,5
"651","juu2whn4",33,11,4
"652","juu2whn4",33,12,5
"653","juu2whn4",33,13,5
"654","juu2whn4",33,14,4
"655","juu2whn4",33,15,4
"656","juu2whn4",33,16,4
"657","juu2whn4",33,17,4
"658","juu2whn4",33,18,4
"659","juu2whn4",33,19,4
"660","juu2whn4",33,20,4
"661","2mdshk29",34,1,4
"662","2mdshk29",34,2,4
"663","2mdshk29",34,3,3
"664","2mdshk29",34,4,3
"665","2mdshk29",34,5,2
"666","2mdshk29",34,6,4
"667","2mdshk29",34,7,5
"668","2mdshk29",34,8,7
"669","2mdshk29",34,9,3
"670","2mdshk29",34,10,5
"671","2mdshk29",34,11,6
"672","2mdshk29",34,12,3
"673","2mdshk29",34,13,4
"674","2mdshk29",34,14,2
"675","2mdshk29",34,15,3
"676","2mdshk29",34,16,4
"677","2mdshk29",34,17,4
"678","2mdshk29",34,18,4
"679","2mdshk29",34,19,1
"680","2mdshk29",34,20,2
"681","juu2whn4",35,1,3
"682","juu2whn4",35,2,5
"683","juu2whn4",35,3,5
"684","juu2whn4",35,4,5
"685","juu2whn4",35,5,6
"686","juu2whn4",35,6,4
"687","juu2whn4",35,7,5
"688","juu2whn4",35,8,6
"689","juu2whn4",35,9,5
"690","juu2whn4",35,10,4
"691","juu2whn4",35,11,4
"692","juu2whn4",35,12,4
"693","juu2whn4",35,13,4
"694","juu2whn4",35,14,4
"695","juu2whn4",35,15,4
"696","juu2whn4",35,16,4
"697","juu2whn4",35,17,4
"698","juu2whn4",35,18,4
"699","juu2whn4",35,19,4
"700","juu2whn4",35,20,4
"701","2mdshk29",36,1,3
"702","2mdshk29",36,2,4
"703","2mdshk29",36,3,3
"704","2mdshk29",36,4,2
"705","2mdshk29",36,5,2
"706","2mdshk29",36,6,4
"707","2mdshk29",36,7,5
"708","2mdshk29",36,8,7
"709","2mdshk29",36,9,3
"710","2mdshk29",36,10,5
"711","2mdshk29",36,11,6
"712","2mdshk29",36,12,2
"713","2mdshk29",36,13,2
"714","2mdshk29",36,14,1
"715","2mdshk29",36,15,2
"716","2mdshk29",36,16,3
"717","2mdshk29",36,17,3
"718","2mdshk29",36,18,2
"719","2mdshk29",36,19,3
"720","2mdshk29",36,20,2
"721","juu2whn4",37,1,7
"722","juu2whn4",37,2,6
"723","juu2whn4",37,3,5
"724","juu2whn4",37,4,4
"725","juu2whn4",37,5,5
"726","juu2whn4",37,6,6
"727","juu2whn4",37,7,5
"728","juu2whn4",37,8,4
"729","juu2whn4",37,9,5
"730","juu2whn4",37,10,5
"731","juu2whn4",37,11,5
"732","juu2whn4",37,12,4
"733","juu2whn4",37,13,4
"734","juu2whn4",37,14,4
"735","juu2whn4",37,15,4
"736","juu2whn4",37,16,4
"737","juu2whn4",37,17,4
"738","juu2whn4",37,18,4
"739","juu2whn4",37,19,4
"740","juu2whn4",37,20,4
"741","2mdshk29",38,1,3
"742","2mdshk29",38,2,4
"743","2mdshk29",38,3,4
"744","2mdshk29",38,4,5
"745","2mdshk29",38,5,2
"746","2mdshk29",38,6,4
"747","2mdshk29",38,7,5
"748","2mdshk29",38,8,7
"749","2mdshk29",38,9,3
"750","2mdshk29",38,10,5
"751","2mdshk29",38,11,6
"752","2mdshk29",38,12,4
"753","2mdshk29",38,13,3
"754","2mdshk29",38,14,2
"755","2mdshk29",38,15,4
"756","2mdshk29",38,16,3
"757","2mdshk29",38,17,2
"758","2mdshk29",38,18,4
"759","2mdshk29",38,19,5
"760","2mdshk29",38,20,4
"761","juu2whn4",39,1,7
"762","juu2whn4",39,2,5
"763","juu2whn4",39,3,4
"764","juu2whn4",39,4,7
"765","juu2whn4",39,5,6
"766","juu2whn4",39,6,5
"767","juu2whn4",39,7,4
"768","juu2whn4",39,8,6
"769","juu2whn4",39,9,5
"770","juu2whn4",39,10,4
"771","juu2whn4",39,11,5
"772","juu2whn4",39,12,5
"773","juu2whn4",39,13,4
"774","juu2whn4",39,14,3
"775","juu2whn4",39,15,5
"776","juu2whn4",39,16,6
"777","juu2whn4",39,17,7
"778","juu2whn4",39,18,6
"779","juu2whn4",39,19,5
"780","juu2whn4",39,20,4
"781","2mdshk29",40,1,5
"782","2mdshk29",40,2,3
"783","2mdshk29",40,3,2
"784","2mdshk29",40,4,1
"785","2mdshk29",40,5,6
"786","2mdshk29",40,6,4
"787","2mdshk29",40,7,5
"788","2mdshk29",40,8,7
"789","2mdshk29",40,9,3
"790","2mdshk29",40,10,5
"791","2mdshk29",40,11,6
"792","2mdshk29",40,12,4
"793","2mdshk29",40,13,3
"794","2mdshk29",40,14,1
"795","2mdshk29",40,15,6
"796","2mdshk29",40,16,7
"797","2mdshk29",40,17,5
"798","2mdshk29",40,18,4
"799","2mdshk29",40,19,3
"800","2mdshk29",40,20,7
"801","qwpgfrsc",41,1,7
"802","qwpgfrsc",41,2,7
"803","qwpgfrsc",41,3,7
"804","qwpgfrsc",41,4,7
"805","qwpgfrsc",41,5,7
"806","qwpgfrsc",41,6,7
"807","qwpgfrsc",41,7,7
"808","qwpgfrsc",41,8,7
"809","qwpgfrsc",41,9,7
"810","qwpgfrsc",41,10,7
"811","qwpgfrsc",41,11,7
"812","qwpgfrsc",41,12,4
"813","qwpgfrsc",41,13,4
"814","qwpgfrsc",41,14,3
"815","qwpgfrsc",41,15,3
"816","qwpgfrsc",41,16,3
"817","qwpgfrsc",41,17,3
"818","qwpgfrsc",41,18,3
"819","qwpgfrsc",41,19,3
"820","qwpgfrsc",41,20,4
"821","my9hlphv",42,1,5
"822","my9hlphv",42,2,5
"823","my9hlphv",42,3,3
"824","my9hlphv",42,4,3
"825","my9hlphv",42,5,6
"826","my9hlphv",42,6,4
"827","my9hlphv",42,7,2
"828","my9hlphv",42,8,3
"829","my9hlphv",42,9,4
"830","my9hlphv",42,10,4
"831","my9hlphv",42,11,3
"832","my9hlphv",42,12,3
"833","my9hlphv",42,13,2
"834","my9hlphv",42,14,3
"835","my9hlphv",42,15,4
"836","my9hlphv",42,16,4
"837","my9hlphv",42,17,5
"838","my9hlphv",42,18,5
"839","my9hlphv",42,19,6
"840","my9hlphv",42,20,7
"841","qwpgfrsc",43,1,7
"842","qwpgfrsc",43,2,4
"843","qwpgfrsc",43,3,5
"844","qwpgfrsc",43,4,3
"845","qwpgfrsc",43,5,3
"846","qwpgfrsc",43,6,4
"847","qwpgfrsc",43,7,3
"848","qwpgfrsc",43,8,3
"849","qwpgfrsc",43,9,3
"850","qwpgfrsc",43,10,3
"851","qwpgfrsc",43,11,3
"852","qwpgfrsc",43,12,3
"853","qwpgfrsc",43,13,5
"854","qwpgfrsc",43,14,3
"855","qwpgfrsc",43,15,3
"856","qwpgfrsc",43,16,3
"857","qwpgfrsc",43,17,3
"858","qwpgfrsc",43,18,3
"859","qwpgfrsc",43,19,3
"860","qwpgfrsc",43,20,3
"861","my9hlphv",44,1,4
"862","my9hlphv",44,2,6
"863","my9hlphv",44,3,3
"864","my9hlphv",44,4,4
"865","my9hlphv",44,5,4
"866","my9hlphv",44,6,4
"867","my9hlphv",44,7,4
"868","my9hlphv",44,8,3
"869","my9hlphv",44,9,4
"870","my9hlphv",44,10,4
"871","my9hlphv",44,11,4
"872","my9hlphv",44,12,4
"873","my9hlphv",44,13,3
"874","my9hlphv",44,14,4
"875","my9hlphv",44,15,4
"876","my9hlphv",44,16,5
"877","my9hlphv",44,17,5
"878","my9hlphv",44,18,6
"879","my9hlphv",44,19,6
"880","my9hlphv",44,20,7
"881","qwpgfrsc",45,1,4
"882","qwpgfrsc",45,2,5
"883","qwpgfrsc",45,3,3
"884","qwpgfrsc",45,4,4
"885","qwpgfrsc",45,5,5
"886","qwpgfrsc",45,6,3
"887","qwpgfrsc",45,7,7
"888","qwpgfrsc",45,8,3
"889","qwpgfrsc",45,9,4
"890","qwpgfrsc",45,10,4
"891","qwpgfrsc",45,11,3
"892","qwpgfrsc",45,12,3
"893","qwpgfrsc",45,13,3
"894","qwpgfrsc",45,14,5
"895","qwpgfrsc",45,15,3
"896","qwpgfrsc",45,16,3
"897","qwpgfrsc",45,17,3
"898","qwpgfrsc",45,18,4
"899","qwpgfrsc",45,19,4
"900","qwpgfrsc",45,20,4
"901","my9hlphv",46,1,3
"902","my9hlphv",46,2,3
"903","my9hlphv",46,3,3
"904","my9hlphv",46,4,3
"905","my9hlphv",46,5,2
"906","my9hlphv",46,6,3
"907","my9hlphv",46,7,3
"908","my9hlphv",46,8,3
"909","my9hlphv",46,9,3
"910","my9hlphv",46,10,3
"911","my9hlphv",46,11,4
"912","my9hlphv",46,12,4
"913","my9hlphv",46,13,4
"914","my9hlphv",46,14,4
"915","my9hlphv",46,15,4
"916","my9hlphv",46,16,4
"917","my9hlphv",46,17,5
"918","my9hlphv",46,18,5
"919","my9hlphv",46,19,6
"920","my9hlphv",46,20,7
"921","qwpgfrsc",47,1,3
"922","qwpgfrsc",47,2,3
"923","qwpgfrsc",47,3,4
"924","qwpgfrsc",47,4,4
"925","qwpgfrsc",47,5,4
"926","qwpgfrsc",47,6,4
"927","qwpgfrsc",47,7,7
"928","qwpgfrsc",47,8,7
"929","qwpgfrsc",47,9,7
"930","qwpgfrsc",47,10,7
"931","qwpgfrsc",47,11,7
"932","qwpgfrsc",47,12,3
"933","qwpgfrsc",47,13,3
"934","qwpgfrsc",47,14,3
"935","qwpgfrsc",47,15,3
"936","qwpgfrsc",47,16,3
"937","qwpgfrsc",47,17,3
"938","qwpgfrsc",47,18,3
"939","qwpgfrsc",47,19,4
"940","qwpgfrsc",47,20,4
"941","my9hlphv",48,1,5
"942","my9hlphv",48,2,4
"943","my9hlphv",48,3,4
"944","my9hlphv",48,4,5
"945","my9hlphv",48,5,4
"946","my9hlphv",48,6,1
"947","my9hlphv",48,7,3
"948","my9hlphv",48,8,3
"949","my9hlphv",48,9,4
"950","my9hlphv",48,10,4
"951","my9hlphv",48,11,4
"952","my9hlphv",48,12,2
"953","my9hlphv",48,13,6
"954","my9hlphv",48,14,5
"955","my9hlphv",48,15,5
"956","my9hlphv",48,16,5
"957","my9hlphv",48,17,5
"958","my9hlphv",48,18,6
"959","my9hlphv",48,19,6
"960","my9hlphv",48,20,6
"961","z74kb7fh",49,1,4
"962","z74kb7fh",49,2,5
"963","z74kb7fh",49,3,7
"964","z74kb7fh",49,4,6
"965","z74kb7fh",49,5,7
"966","z74kb7fh",49,6,7
"967","z74kb7fh",49,7,6
"968","z74kb7fh",49,8,5
"969","z74kb7fh",49,9,5
"970","z74kb7fh",49,10,5
"971","z74kb7fh",49,11,5
"972","z74kb7fh",49,12,1
"973","z74kb7fh",49,13,7
"974","z74kb7fh",49,14,7
"975","z74kb7fh",49,15,7
"976","z74kb7fh",49,16,7
"977","z74kb7fh",49,17,7
"978","z74kb7fh",49,18,7
"979","z74kb7fh",49,19,1
"980","z74kb7fh",49,20,1
"981","oixczn5c",50,1,4
"982","oixczn5c",50,2,4
"983","oixczn5c",50,3,4
"984","oixczn5c",50,4,5
"985","oixczn5c",50,5,4
"986","oixczn5c",50,6,3
"987","oixczn5c",50,7,3
"988","oixczn5c",50,8,4
"989","oixczn5c",50,9,3
"990","oixczn5c",50,10,3
"991","oixczn5c",50,11,4
"992","oixczn5c",50,12,4
"993","oixczn5c",50,13,4
"994","oixczn5c",50,14,4
"995","oixczn5c",50,15,4
"996","oixczn5c",50,16,1
"997","oixczn5c",50,17,3
"998","oixczn5c",50,18,2
"999","oixczn5c",50,19,4
"1000","oixczn5c",50,20,3
"1001","z74kb7fh",51,1,5
"1002","z74kb7fh",51,2,6
"1003","z74kb7fh",51,3,6
"1004","z74kb7fh",51,4,7
"1005","z74kb7fh",51,5,6
"1006","z74kb7fh",51,6,6
"1007","z74kb7fh",51,7,6
"1008","z74kb7fh",51,8,5
"1009","z74kb7fh",51,9,5
"1010","z74kb7fh",51,10,2
"1011","z74kb7fh",51,11,1
"1012","z74kb7fh",51,12,1
"1013","z74kb7fh",51,13,1
"1014","z74kb7fh",51,14,1
"1015","z74kb7fh",51,15,5
"1016","z74kb7fh",51,16,6
"1017","z74kb7fh",51,17,6
"1018","z74kb7fh",51,18,2
"1019","z74kb7fh",51,19,5
"1020","z74kb7fh",51,20,2
"1021","oixczn5c",52,1,4
"1022","oixczn5c",52,2,5
"1023","oixczn5c",52,3,4
"1024","oixczn5c",52,4,1
"1025","oixczn5c",52,5,5
"1026","oixczn5c",52,6,6
"1027","oixczn5c",52,7,6
"1028","oixczn5c",52,8,3
"1029","oixczn5c",52,9,2
"1030","oixczn5c",52,10,4
"1031","oixczn5c",52,11,3
"1032","oixczn5c",52,12,4
"1033","oixczn5c",52,13,5
"1034","oixczn5c",52,14,4
"1035","oixczn5c",52,15,1
"1036","oixczn5c",52,16,4
"1037","oixczn5c",52,17,4
"1038","oixczn5c",52,18,4
"1039","oixczn5c",52,19,4
"1040","oixczn5c",52,20,4
"1041","z74kb7fh",53,1,5
"1042","z74kb7fh",53,2,6
"1043","z74kb7fh",53,3,4
"1044","z74kb7fh",53,4,6
"1045","z74kb7fh",53,5,7
"1046","z74kb7fh",53,6,5
"1047","z74kb7fh",53,7,5
"1048","z74kb7fh",53,8,7
"1049","z74kb7fh",53,9,3
"1050","z74kb7fh",53,10,1
"1051","z74kb7fh",53,11,2
"1052","z74kb7fh",53,12,1
"1053","z74kb7fh",53,13,1
"1054","z74kb7fh",53,14,6
"1055","z74kb7fh",53,15,7
"1056","z74kb7fh",53,16,7
"1057","z74kb7fh",53,17,1
"1058","z74kb7fh",53,18,4
"1059","z74kb7fh",53,19,1
"1060","z74kb7fh",53,20,1
"1061","oixczn5c",54,1,3
"1062","oixczn5c",54,2,6
"1063","oixczn5c",54,3,7
"1064","oixczn5c",54,4,7
"1065","oixczn5c",54,5,7
"1066","oixczn5c",54,6,7
"1067","oixczn5c",54,7,7
"1068","oixczn5c",54,8,7
"1069","oixczn5c",54,9,7
"1070","oixczn5c",54,10,7
"1071","oixczn5c",54,11,7
"1072","oixczn5c",54,12,7
"1073","oixczn5c",54,13,7
"1074","oixczn5c",54,14,7
"1075","oixczn5c",54,15,7
"1076","oixczn5c",54,16,7
"1077","oixczn5c",54,17,7
"1078","oixczn5c",54,18,7
"1079","oixczn5c",54,19,7
"1080","oixczn5c",54,20,7
"1081","z74kb7fh",55,1,5
"1082","z74kb7fh",55,2,6
"1083","z74kb7fh",55,3,7
"1084","z74kb7fh",55,4,7
"1085","z74kb7fh",55,5,6
"1086","z74kb7fh",55,6,7
"1087","z74kb7fh",55,7,5
"1088","z74kb7fh",55,8,5
"1089","z74kb7fh",55,9,5
"1090","z74kb7fh",55,10,5
"1091","z74kb7fh",55,11,1
"1092","z74kb7fh",55,12,1
"1093","z74kb7fh",55,13,7
"1094","z74kb7fh",55,14,7
"1095","z74kb7fh",55,15,7
"1096","z74kb7fh",55,16,7
"1097","z74kb7fh",55,17,7
"1098","z74kb7fh",55,18,7
"1099","z74kb7fh",55,19,7
"1100","z74kb7fh",55,20,1
"1101","oixczn5c",56,1,2
"1102","oixczn5c",56,2,4
"1103","oixczn5c",56,3,5
"1104","oixczn5c",56,4,4
"1105","oixczn5c",56,5,2
"1106","oixczn5c",56,6,3
"1107","oixczn5c",56,7,6
"1108","oixczn5c",56,8,2
"1109","oixczn5c",56,9,1
"1110","oixczn5c",56,10,4
"1111","oixczn5c",56,11,5
"1112","oixczn5c",56,12,7
"1113","oixczn5c",56,13,3
"1114","oixczn5c",56,14,2
"1115","oixczn5c",56,15,5
"1116","oixczn5c",56,16,4
"1117","oixczn5c",56,17,1
"1118","oixczn5c",56,18,3
"1119","oixczn5c",56,19,3
"1120","oixczn5c",56,20,4
"1121","a2hsq8cw",57,1,7
"1122","a2hsq8cw",57,2,6
"1123","a2hsq8cw",57,3,7
"1124","a2hsq8cw",57,4,6
"1125","a2hsq8cw",57,5,7
"1126","a2hsq8cw",57,6,7
"1127","a2hsq8cw",57,7,6
"1128","a2hsq8cw",57,8,6
"1129","a2hsq8cw",57,9,7
"1130","a2hsq8cw",57,10,7
"1131","a2hsq8cw",57,11,7
"1132","a2hsq8cw",57,12,7
"1133","a2hsq8cw",57,13,7
"1134","a2hsq8cw",57,14,7
"1135","a2hsq8cw",57,15,7
"1136","a2hsq8cw",57,16,7
"1137","a2hsq8cw",57,17,7
"1138","a2hsq8cw",57,18,7
"1139","a2hsq8cw",57,19,7
"1140","a2hsq8cw",57,20,7
"1141","oi7wbucg",58,1,6
"1142","oi7wbucg",58,2,7
"1143","oi7wbucg",58,3,6
"1144","oi7wbucg",58,4,7
"1145","oi7wbucg",58,5,5
"1146","oi7wbucg",58,6,7
"1147","oi7wbucg",58,7,7
"1148","oi7wbucg",58,8,7
"1149","oi7wbucg",58,9,7
"1150","oi7wbucg",58,10,1
"1151","oi7wbucg",58,11,7
"1152","oi7wbucg",58,12,7
"1153","oi7wbucg",58,13,1
"1154","oi7wbucg",58,14,7
"1155","oi7wbucg",58,15,1
"1156","oi7wbucg",58,16,7
"1157","oi7wbucg",58,17,5
"1158","oi7wbucg",58,18,1
"1159","oi7wbucg",58,19,1
"1160","oi7wbucg",58,20,1
"1161","a2hsq8cw",59,1,5
"1162","a2hsq8cw",59,2,7
"1163","a2hsq8cw",59,3,7
"1164","a2hsq8cw",59,4,7
"1165","a2hsq8cw",59,5,7
"1166","a2hsq8cw",59,6,7
"1167","a2hsq8cw",59,7,6
"1168","a2hsq8cw",59,8,7
"1169","a2hsq8cw",59,9,7
"1170","a2hsq8cw",59,10,7
"1171","a2hsq8cw",59,11,7
"1172","a2hsq8cw",59,12,7
"1173","a2hsq8cw",59,13,7
"1174","a2hsq8cw",59,14,7
"1175","a2hsq8cw",59,15,7
"1176","a2hsq8cw",59,16,7
"1177","a2hsq8cw",59,17,7
"1178","a2hsq8cw",59,18,7
"1179","a2hsq8cw",59,19,7
"1180","a2hsq8cw",59,20,7
"1181","oi7wbucg",60,1,7
"1182","oi7wbucg",60,2,7
"1183","oi7wbucg",60,3,3
"1184","oi7wbucg",60,4,5
"1185","oi7wbucg",60,5,1
"1186","oi7wbucg",60,6,4
"1187","oi7wbucg",60,7,7
"1188","oi7wbucg",60,8,1
"1189","oi7wbucg",60,9,4
"1190","oi7wbucg",60,10,1
"1191","oi7wbucg",60,11,1
"1192","oi7wbucg",60,12,1
"1193","oi7wbucg",60,13,1
"1194","oi7wbucg",60,14,1
"1195","oi7wbucg",60,15,7
"1196","oi7wbucg",60,16,1
"1197","oi7wbucg",60,17,1
"1198","oi7wbucg",60,18,1
"1199","oi7wbucg",60,19,1
"1200","oi7wbucg",60,20,1
"1201","a2hsq8cw",61,1,7
"1202","a2hsq8cw",61,2,7
"1203","a2hsq8cw",61,3,7
"1204","a2hsq8cw",61,4,7
"1205","a2hsq8cw",61,5,7
"1206","a2hsq8cw",61,6,7
"1207","a2hsq8cw",61,7,7
"1208","a2hsq8cw",61,8,7
"1209","a2hsq8cw",61,9,7
"1210","a2hsq8cw",61,10,7
"1211","a2hsq8cw",61,11,7
"1212","a2hsq8cw",61,12,7
"1213","a2hsq8cw",61,13,7
"1214","a2hsq8cw",61,14,7
"1215","a2hsq8cw",61,15,7
"1216","a2hsq8cw",61,16,7
"1217","a2hsq8cw",61,17,7
"1218","a2hsq8cw",61,18,7
"1219","a2hsq8cw",61,19,7
"1220","a2hsq8cw",61,20,7
"1221","oi7wbucg",62,1,6
"1222","oi7wbucg",62,2,6
"1223","oi7wbucg",62,3,7
"1224","oi7wbucg",62,4,5
"1225","oi7wbucg",62,5,6
"1226","oi7wbucg",62,6,5
"1227","oi7wbucg",62,7,4
"1228","oi7wbucg",62,8,4
"1229","oi7wbucg",62,9,2
"1230","oi7wbucg",62,10,7
"1231","oi7wbucg",62,11,2
"1232","oi7wbucg",62,12,1
"1233","oi7wbucg",62,13,1
"1234","oi7wbucg",62,14,1
"1235","oi7wbucg",62,15,1
"1236","oi7wbucg",62,16,4
"1237","oi7wbucg",62,17,5
"1238","oi7wbucg",62,18,1
"1239","oi7wbucg",62,19,1
"1240","oi7wbucg",62,20,1
"1241","a2hsq8cw",63,1,7
"1242","a2hsq8cw",63,2,6
"1243","a2hsq8cw",63,3,6
"1244","a2hsq8cw",63,4,7
"1245","a2hsq8cw",63,5,6
"1246","a2hsq8cw",63,6,6
"1247","a2hsq8cw",63,7,7
"1248","a2hsq8cw",63,8,7
"1249","a2hsq8cw",63,9,7
"1250","a2hsq8cw",63,10,7
"1251","a2hsq8cw",63,11,7
"1252","a2hsq8cw",63,12,7
"1253","a2hsq8cw",63,13,7
"1254","a2hsq8cw",63,14,7
"1255","a2hsq8cw",63,15,7
"1256","a2hsq8cw",63,16,7
"1257","a2hsq8cw",63,17,7
"1258","a2hsq8cw",63,18,7
"1259","a2hsq8cw",63,19,7
"1260","a2hsq8cw",63,20,7
"1261","oi7wbucg",64,1,1
"1262","oi7wbucg",64,2,2
"1263","oi7wbucg",64,3,3
"1264","oi7wbucg",64,4,4
"1265","oi7wbucg",64,5,5
"1266","oi7wbucg",64,6,1
"1267","oi7wbucg",64,7,1
"1268","oi7wbucg",64,8,7
"1269","oi7wbucg",64,9,1
"1270","oi7wbucg",64,10,1
"1271","oi7wbucg",64,11,1
"1272","oi7wbucg",64,12,1
"1273","oi7wbucg",64,13,1
"1274","oi7wbucg",64,14,1
"1275","oi7wbucg",64,15,1
"1276","oi7wbucg",64,16,1
"1277","oi7wbucg",64,17,1
"1278","oi7wbucg",64,18,1
"1279","oi7wbucg",64,19,1
"1280","oi7wbucg",64,20,1
"1281","c6jey7bt",65,1,6
"1282","c6jey7bt",65,2,3
"1283","c6jey7bt",65,3,4
"1284","c6jey7bt",65,4,3
"1285","c6jey7bt",65,5,4
"1286","c6jey7bt",65,6,6
"1287","c6jey7bt",65,7,7
"1288","c6jey7bt",65,8,7
"1289","c6jey7bt",65,9,7
"1290","c6jey7bt",65,10,7
"1291","c6jey7bt",65,11,7
"1292","c6jey7bt",65,12,7
"1293","c6jey7bt",65,13,7
"1294","c6jey7bt",65,14,7
"1295","c6jey7bt",65,15,7
"1296","c6jey7bt",65,16,7
"1297","c6jey7bt",65,17,7
"1298","c6jey7bt",65,18,5
"1299","c6jey7bt",65,19,1
"1300","c6jey7bt",65,20,2
"1301","e77jmve1",66,1,5
"1302","e77jmve1",66,2,6
"1303","e77jmve1",66,3,7
"1304","e77jmve1",66,4,7
"1305","e77jmve1",66,5,5
"1306","e77jmve1",66,6,5
"1307","e77jmve1",66,7,3
"1308","e77jmve1",66,8,1
"1309","e77jmve1",66,9,1
"1310","e77jmve1",66,10,1
"1311","e77jmve1",66,11,1
"1312","e77jmve1",66,12,7
"1313","e77jmve1",66,13,7
"1314","e77jmve1",66,14,7
"1315","e77jmve1",66,15,7
"1316","e77jmve1",66,16,7
"1317","e77jmve1",66,17,6
"1318","e77jmve1",66,18,7
"1319","e77jmve1",66,19,7
"1320","e77jmve1",66,20,7
"1321","c6jey7bt",67,1,5
"1322","c6jey7bt",67,2,4
"1323","c6jey7bt",67,3,1
"1324","c6jey7bt",67,4,4
"1325","c6jey7bt",67,5,3
"1326","c6jey7bt",67,6,7
"1327","c6jey7bt",67,7,7
"1328","c6jey7bt",67,8,7
"1329","c6jey7bt",67,9,7
"1330","c6jey7bt",67,10,7
"1331","c6jey7bt",67,11,7
"1332","c6jey7bt",67,12,7
"1333","c6jey7bt",67,13,7
"1334","c6jey7bt",67,14,7
"1335","c6jey7bt",67,15,7
"1336","c6jey7bt",67,16,7
"1337","c6jey7bt",67,17,7
"1338","c6jey7bt",67,18,1
"1339","c6jey7bt",67,19,2
"1340","c6jey7bt",67,20,1
"1341","e77jmve1",68,1,1
"1342","e77jmve1",68,2,5
"1343","e77jmve1",68,3,3
"1344","e77jmve1",68,4,6
"1345","e77jmve1",68,5,4
"1346","e77jmve1",68,6,3
"1347","e77jmve1",68,7,3
"1348","e77jmve1",68,8,3
"1349","e77jmve1",68,9,1
"1350","e77jmve1",68,10,1
"1351","e77jmve1",68,11,1
"1352","e77jmve1",68,12,1
"1353","e77jmve1",68,13,2
"1354","e77jmve1",68,14,3
"1355","e77jmve1",68,15,3
"1356","e77jmve1",68,16,5
"1357","e77jmve1",68,17,5
"1358","e77jmve1",68,18,1
"1359","e77jmve1",68,19,7
"1360","e77jmve1",68,20,3
"1361","c6jey7bt",69,1,3
"1362","c6jey7bt",69,2,1
"1363","c6jey7bt",69,3,1
"1364","c6jey7bt",69,4,1
"1365","c6jey7bt",69,5,7
"1366","c6jey7bt",69,6,7
"1367","c6jey7bt",69,7,7
"1368","c6jey7bt",69,8,7
"1369","c6jey7bt",69,9,7
"1370","c6jey7bt",69,10,7
"1371","c6jey7bt",69,11,7
"1372","c6jey7bt",69,12,6
"1373","c6jey7bt",69,13,6
"1374","c6jey7bt",69,14,7
"1375","c6jey7bt",69,15,7
"1376","c6jey7bt",69,16,7
"1377","c6jey7bt",69,17,3
"1378","c6jey7bt",69,18,6
"1379","c6jey7bt",69,19,1
"1380","c6jey7bt",69,20,1
"1381","e77jmve1",70,1,5
"1382","e77jmve1",70,2,4
"1383","e77jmve1",70,3,6
"1384","e77jmve1",70,4,5
"1385","e77jmve1",70,5,6
"1386","e77jmve1",70,6,5
"1387","e77jmve1",70,7,2
"1388","e77jmve1",70,8,3
"1389","e77jmve1",70,9,3
"1390","e77jmve1",70,10,1
"1391","e77jmve1",70,11,1
"1392","e77jmve1",70,12,1
"1393","e77jmve1",70,13,2
"1394","e77jmve1",70,14,4
"1395","e77jmve1",70,15,5
"1396","e77jmve1",70,16,7
"1397","e77jmve1",70,17,5
"1398","e77jmve1",70,18,6
"1399","e77jmve1",70,19,2
"1400","e77jmve1",70,20,7
"1401","c6jey7bt",71,1,1
"1402","c6jey7bt",71,2,2
"1403","c6jey7bt",71,3,3
"1404","c6jey7bt",71,4,4
"1405","c6jey7bt",71,5,5
"1406","c6jey7bt",71,6,6
"1407","c6jey7bt",71,7,7
"1408","c6jey7bt",71,8,6
"1409","c6jey7bt",71,9,7
"1410","c6jey7bt",71,10,6
"1411","c6jey7bt",71,11,5
"1412","c6jey7bt",71,12,7
"1413","c6jey7bt",71,13,7
"1414","c6jey7bt",71,14,6
"1415","c6jey7bt",71,15,7
"1416","c6jey7bt",71,16,1
"1417","c6jey7bt",71,17,3
"1418","c6jey7bt",71,18,4
"1419","c6jey7bt",71,19,5
"1420","c6jey7bt",71,20,7
"1421","e77jmve1",72,1,6
"1422","e77jmve1",72,2,5
"1423","e77jmve1",72,3,6
"1424","e77jmve1",72,4,5
"1425","e77jmve1",72,5,7
"1426","e77jmve1",72,6,5
"1427","e77jmve1",72,7,5
"1428","e77jmve1",72,8,1
"1429","e77jmve1",72,9,1
"1430","e77jmve1",72,10,1
"1431","e77jmve1",72,11,1
"1432","e77jmve1",72,12,1
"1433","e77jmve1",72,13,7
"1434","e77jmve1",72,14,7
"1435","e77jmve1",72,15,7
"1436","e77jmve1",72,16,5
"1437","e77jmve1",72,17,7
"1438","e77jmve1",72,18,7
"1439","e77jmve1",72,19,4
"1440","e77jmve1",72,20,7
